Folder: Python/XRD

File: OER Sample 1 (Ti TiO2 Sb2S3)_25112020_bg_subtracted.xy
'Id: "Commander Sample ID" Comment: "" Operator: "Lab Manager" Anode: "Cu" Scantype: "Coupled TwoTheta/Theta" TimePerStep: "38.4"
10.0001 -0.610176
10.2862 -0.927255
10.5722 0.706396
10.8583 0.258832
11.1443 2.59985
11.4304 1.84402
11.7164 3.69448
12.0025 4.86998
12.2886 6.04759
12.5746 8.42524
12.8607 11.1175
13.1467 11.9629
13.4328 15.3365
13.7188 16.1862
14.0049 18.1578
14.291 16.4075
14.577 18.2531
14.8631 18.0175
15.1491 16.3518
15.4352 14.9225
15.7212 21.7766
16.0073 12.6432
16.2934 10.0744
16.5794 9.92967
16.8655 7.54744
17.1515 8.73504
17.4376 8.28413
17.7236 7.8093
18.0097 3.63868
18.2958 4.20975
18.5818 2.77774
18.8679 3.0666
19.1539 1.8732
19.44 2.89546
19.726 1.86255
20.0121 0.857797
20.2981 2.5635
20.5842 0.677571
20.8703 0.668762
21.1563 -0.667405
21.4424 0.158654
21.7284 0.281251
22.0145 0.20186
22.3005 1.1923
22.5866 -0.549524
22.8727 -0.231933
23.1587 0.345815
23.4448 -0.138203
23.7308 0.641932
24.0169 -0.122268
24.3029 0.581539
24.589 -0.0910867
24.8751 2.67591
25.1611 2.00752
25.4472 -0.0129156
25.7332 0.281884
26.0193 -0.125839
26.3053 -0.271025
26.5914 -0.122774
26.8775 -0.424971
27.1635 0.266117
27.4496 1.63641
27.7356 0.665066
28.0217 0.39897
28.3077 0.161034
28.5938 3.05022
28.8799 1.07173
29.1659 0.912237
29.452 1.93523
29.738 -0.112571
30.0241 1.30529
30.3101 0.798181
30.5962 -0.800556
30.8823 0.649701
31.1683 0.0187441
31.4544 0.301365
31.7404 0.325688
32.0265 0.430255
32.3125 -0.218267
32.5986 1.06241
32.8847 0.778524
33.1707 0.126585
33.4568 0.336141
33.7428 0.0790652
34.0289 -0.332141
34.3149 0.0502041
34.601 -0.0261699
34.8871 -0.259633
35.1731 0.523842
35.4592 0.528186
35.7452 1.18569
36.0313 -0.159893
36.3173 0.540719
36.6034 0.742686
36.8895 0.556148
37.1755 0.545564
37.4616 0.5233
37.7476 -0.0654496
38.0337 1.38348
38.3197 9.13662
38.6058 4.49604
38.8919 0.664869
39.1779 -0.524207
39.464 0.0450211
39.75 0.303868
40.0361 2.20546
40.3221 9.49979
40.6082 0.676457
40.8942 0.266697
41.1803 0.188669
41.4664 0.467805
41.7524 0.514686
42.0385 0.302161
42.3245 0.955747
42.6106 0.673952
42.8966 0.472402
43.1827 0.663595
43.4688 -0.184759
43.7548 0.271089
44.0409 0.364473
44.3269 1.13739
44.613 -0.103079
44.899 0.195035
45.1851 -0.129733
45.4712 0.198661
45.7572 -0.14791
46.0433 0.818404
46.3293 0.642629
46.6154 0.0457944
46.9014 0.779204
47.1875 0.941816
47.4736 0.481547
47.7596 0.708855
48.0457 0.649989
48.3317 0.214587
48.6178 -0.0165581
48.9038 0.272505
49.1899 0.45952
49.476 0.186008
49.762 0.443098
50.0481 0.363765
50.3341 0.267711
50.6202 0.259989
50.9062 0.490916
51.1923 -0.150175
51.4784 0.460852
51.7644 -0.0566213
52.0505 0.437219
52.3365 0.757187
52.6226 0.714691
52.9086 5.28369
53.1947 10.1933
53.4808 -0.0771645
53.7668 0.0450663
54.0529 -0.0907208
54.3389 0.788498
54.625 0.367753
54.911 0.339751
55.1971 0.238798
55.4832 0.368951
55.7692 -0.0456516
56.0553 0.687698
56.3413 0.524685
56.6274 0.622735
56.9134 0.0979044
57.1995 0.564776
57.4856 0.791102
57.7716 -0.128531
58.0577 0.0477045
58.3437 -0.219816
58.6298 -0.213898
58.9158 0.731639
59.2019 0.394502
59.4879 0.0267678
59.774 0.19324
60.0601 0.387873
60.3461 0.0377499
60.6322 0.132455
60.9182 0.0269634
61.2043 -0.327141
61.4903 -0.132252
61.7764 0.25651
62.0625 -0.012861
62.3485 0.601131
62.6346 0.168955
62.9206 3.64515
63.2067 0.56096
63.4927 0.551809
63.7788 -0.0878081
64.0649 -0.11497
64.3509 -0.0396254
64.637 0.0408009
64.923 0.471321
65.2091 -0.357671
65.4951 -0.403294
65.7812 0.140532
66.0673 0.26981
66.3533 -0.00038272
66.6394 -0.0176345
66.9254 -0.136934
67.2115 -0.0457806
67.4975 -0.098285
67.7836 0.403489
68.0697 0.41259
68.3557 0.0661845
68.6418 -0.216366
68.9278 0.414662
69.2139 -0.0199001
69.4999 -0.071359
69.786 0.535214
70.0721 1.14391
70.3581 2.97868
70.6442 110.909
70.9302 8.6077
71.2163 0.657161
71.5023 0.130617
71.7884 0.0202609
72.0745 0.0154686
72.3605 0.266331
72.6466 -0.242974
72.9326 0.239425
73.2187 -0.159362
73.5047 0.295607
73.7908 -0.10668
74.0769 0.291215
74.3629 0.345967
74.649 -0.0919524
74.935 -0.00691969
75.2211 0.553297
75.5071 0.214961
75.7932 -0.303547
76.0793 1.34152
76.3653 2.31163
76.6514 0.341144
76.9374 -0.220971
77.2235 -0.029769
77.5095 0.189594
77.7956 -0.113131
78.0816 0.286016
78.3677 0.0362404
78.6538 0.439625
78.9398 -0.0663285
79.2259 0.19306
79.5119 0.276157
79.798 0.0145006
80.084 0.17163
80.3701 0.148588
80.6562 0.13118
80.9422 0.230392
81.2283 0.236448
81.5143 0.248843
81.8004 0.27616
82.0864 -0.137112
82.3725 0.285069
82.6586 0.240619
82.9446 -0.103815
83.2307 0.277759
83.5167 0.00112167
83.8028 -0.102565
84.0888 -0.359168
84.3749 0.0644693
84.661 0.553246
84.947 -0.299086
85.2331 -0.081591
85.5191 0.320315
85.8052 -0.21316
86.0912 0.175204
86.3773 -0.0332705
86.6634 0.303316
86.9494 0.263514
87.2355 -0.0345857
87.5215 -0.151517
87.8076 -0.088584
88.0936 0.380645
88.3797 -0.0334229
88.6658 0.84527
88.9518 -0.00766188
89.2379 0.085618
89.5239 -0.094377
89.81 0.159253
89.9939 -0.249783

File: OER Sample 2 (Ti TiO2 Sb2S3 MoO3)_25112020_bg_subtracted.xy
'Id: "Commander Sample ID" Comment: "" Operator: "Lab Manager" Anode: "Cu" Scantype: "Coupled TwoTheta/Theta" TimePerStep: "38.4"
10.0001 -0.594982
10.2862 0.270143
10.5722 -0.0702138
10.8583 0.59624
11.1443 1.13037
11.4304 1.89676
11.7164 3.15583
12.0025 4.72529
12.2886 5.51138
12.5746 8.8214
12.8607 10.9574
13.1467 13.1955
13.4328 13.3221
13.7188 13.5768
14.0049 15.9648
14.291 13.4027
14.577 15.3959
14.8631 15.2515
15.1491 15.157
15.4352 13.2897
15.7212 16.5244
16.0073 10.3559
16.2934 10.904
16.5794 8.76779
16.8655 8.00964
17.1515 7.17125
17.4376 7.60678
17.7236 7.70166
18.0097 5.71109
18.2958 3.19758
18.5818 3.91111
18.8679 2.66941
19.1539 2.90997
19.44 2.44529
19.726 1.82225
20.0121 2.29084
20.2981 1.22086
20.5842 1.63314
20.8703 0.89003
21.1563 0.217362
21.4424 0.0113304
21.7284 -0.248899
22.0145 0.660632
22.3005 0.864925
22.5866 0.520228
22.8727 0.0908152
23.1587 0.928331
23.4448 0.513734
23.7308 0.10875
24.0169 0.171234
24.3029 -0.17208
24.589 0.42973
24.8751 0.742967
25.1611 4.04888
25.4472 0.92039
25.7332 0.263743
26.0193 0.438316
26.3053 0.864544
26.5914 0.337029
26.8775 0.666776
27.1635 1.77253
27.4496 -0.158933
27.7356 -0.139382
28.0217 0.529096
28.3077 0.440252
28.5938 1.52117
28.8799 1.79268
29.1659 0.23916
29.452 0.532484
29.738 0.823694
30.0241 -0.319502
30.3101 0.644562
30.5962 -0.16432
30.8823 0.109516
31.1683 0.562844
31.4544 0.950935
31.7404 0.124564
32.0265 0.363786
32.3125 0.231593
32.5986 0.872244
32.8847 0.364947
33.1707 0.0899116
33.4568 0.333595
33.7428 -0.154002
34.0289 0.684411
34.3149 0.954189
34.601 1.50572
34.8871 -0.496943
35.1731 0.935778
35.4592 0.40443
35.7452 0.359137
36.0313 -0.157019
36.3173 0.00179284
36.6034 -0.127967
36.8895 0.291641
37.1755 0.133682
37.4616 0.41423
37.7476 1.14995
38.0337 1.83147
38.3197 14.1255
38.6058 7.17255
38.8919 -0.1731
39.1779 -0.151075
39.464 0.311
39.75 1.52805
40.0361 2.03461
40.3221 10.4036
40.6082 0.749732
40.8942 0.703078
41.1803 -0.0488142
41.4664 0.450903
41.7524 -0.313894
42.0385 -0.0391382
42.3245 -0.000871888
42.6106 0.139447
42.8966 -0.149486
43.1827 1.32438
43.4688 0.686763
43.7548 0.151195
44.0409 0.65518
44.3269 0.0372588
44.613 -0.0359014
44.899 0.755191
45.1851 0.398977
45.4712 -0.0194639
45.7572 0.265103
46.0433 0.599639
46.3293 -0.285276
46.6154 0.00501359
46.9014 1.38694
47.1875 0.553209
47.4736 1.09757
47.7596 -0.131011
48.0457 0.20046
48.3317 0.201095
48.6178 0.0694084
48.9038 0.664774
49.1899 0.284923
49.476 0.335393
49.762 0.0452069
50.0481 -0.325218
50.3341 -0.120328
50.6202 -0.051992
50.9062 0.369728
51.1923 -0.0146299
51.4784 -0.128934
51.7644 0.560245
52.0505 0.250358
52.3365 0.389083
52.6226 1.36967
52.9086 4.90023
53.1947 14.5485
53.4808 0.262293
53.7668 0.165317
54.0529 0.0428755
54.3389 1.24644
54.625 0.260399
54.911 0.00140638
55.1971 0.417383
55.4832 -0.0802134
55.7692 -0.210646
56.0553 0.290341
56.3413 0.450672
56.6274 0.0359714
56.9134 0.0618654
57.1995 -0.0346685
57.4856 -0.0506795
57.7716 0.0874454
58.0577 0.0151228
58.3437 0.385556
58.6298 0.709054
58.9158 0.180857
59.2019 0.431797
59.4879 -0.256878
59.774 0.276291
60.0601 0.364638
60.3461 -0.0960045
60.6322 0.505824
60.9182 0.159194
61.2043 -0.0970287
61.4903 0.328372
61.7764 -0.044824
62.0625 0.0453391
62.3485 0.419846
62.6346 0.427656
62.9206 2.38648
63.2067 2.88485
63.4927 0.0361341
63.7788 -0.127485
64.0649 0.383866
64.3509 0.16182
64.637 0.457036
64.923 0.203262
65.2091 0.155708
65.4951 0.425261
65.7812 0.472613
66.0673 -0.0177726
66.3533 0.0586103
66.6394 -0.0754544
66.9254 0.39017
67.2115 0.110026
67.4975 0.0621426
67.7836 0.141592
68.0697 -0.257133
68.3557 -0.260072
68.6418 -0.0903018
68.9278 0.305563
69.2139 0.312118
69.4999 -0.170876
69.786 -0.0374103
70.0721 0.729255
70.3581 3.73339
70.6442 73.2198
70.9302 15.8551
71.2163 -0.183559
71.5023 -0.13059
71.7884 0.0126512
72.0745 0.44175
72.3605 -0.227026
72.6466 -0.213638
72.9326 -0.136894
73.2187 -0.286076
73.5047 0.169956
73.7908 -0.00112496
74.0769 0.294429
74.3629 -0.17277
74.649 0.0587092
74.935 0.173072
75.2211 0.389486
75.5071 0.341661
75.7932 0.42022
76.0793 1.12167
76.3653 1.84704
76.6514 0.174462
76.9374 0.16644
77.2235 -0.213862
77.5095 0.0766179
77.7956 -0.312099
78.0816 -0.0327978
78.3677 0.0989366
78.6538 0.172316
78.9398 0.0348727
79.2259 0.0452831
79.5119 -0.311004
79.798 0.111845
80.084 -0.0403375
80.3701 0.274116
80.6562 0.109028
80.9422 0.159235
81.2283 0.136612
81.5143 0.278788
81.8004 0.407413
82.0864 0.143299
82.3725 1.28332
82.6586 0.0253955
82.9446 -0.010686
83.2307 -0.205132
83.5167 0.127855
83.8028 0.483047
84.0888 -0.0557876
84.3749 -0.172103
84.661 0.0480083
84.947 0.0248379
85.2331 0.241477
85.5191 -0.299207
85.8052 -0.00867138
86.0912 0.268658
86.3773 -0.187102
86.6634 -0.0704871
86.9494 0.406763
87.2355 -0.211563
87.5215 0.0396319
87.8076 -0.0758702
88.0936 0.562061
88.3797 0.340538
88.6658 0.0648183
88.9518 -0.0828077
89.2379 -0.10234
89.5239 0.188697
89.81 -0.120242
89.9939 -0.21788

File: OER Sample 3(2) (Ti TiO2 Sb2S3 Ni)_25112020_bg_subtracted.xy
'Id: "Commander Sample ID" Comment: "" Operator: "Lab Manager" Anode: "Cu" Scantype: "Coupled TwoTheta/Theta" TimePerStep: "38.4"
10.0001 -0.610176
10.2862 0.232555
10.5722 0.177305
10.8583 0.10824
11.1443 0.795176
11.4304 -0.213964
11.7164 0.830715
12.0025 -0.0227427
12.2886 0.220454
12.5746 2.0551
12.8607 1.9916
13.1467 1.90497
13.4328 2.36812
13.7188 3.40709
14.0049 1.48022
14.291 4.19167
14.577 3.49456
14.8631 2.35765
15.1491 2.86427
15.4352 3.16546
15.7212 5.70914
16.0073 1.06822
16.2934 0.805214
16.5794 0.440941
16.8655 0.313948
17.1515 -0.383057
17.4376 0.172843
17.7236 3.51811
18.0097 -0.347268
18.2958 0.217346
18.5818 -0.0514048
18.8679 0.519934
19.1539 0.52126
19.44 0.707783
19.726 0.168044
20.0121 0.646835
20.2981 0.349817
20.5842 0.054219
20.8703 0.230276
21.1563 0.904029
21.4424 0.0181866
21.7284 -0.00537574
22.0145 0.548067
22.3005 1.24173
22.5866 1.23517
22.8727 0.11172
23.1587 0.553678
23.4448 -0.137851
23.7308 0.0514764
24.0169 0.191625
24.3029 0.177937
24.589 0.415468
24.8751 1.46319
25.1611 3.63362
25.4472 0.520487
25.7332 0.292201
26.0193 -0.313398
26.3053 -0.0655647
26.5914 0.0961944
26.8775 0.312942
27.1635 -0.00782789
27.4496 -0.699033
27.7356 0.307021
28.0217 0.584832
28.3077 -0.384451
28.5938 1.74813
28.8799 0.00340515
29.1659 0.240753
29.452 0.278608
29.738 0.440016
30.0241 0.187663
30.3101 -0.191994
30.5962 0.0767045
30.8823 0.358213
31.1683 0.764158
31.4544 0.0483943
31.7404 -0.221756
32.0265 0.39865
32.3125 0.731187
32.5986 0.337462
32.8847 0.207059
33.1707 0.0535185
33.4568 0.826136
33.7428 0.419099
34.0289 -0.167325
34.3149 0.186655
34.601 -0.367917
34.8871 0.184704
35.1731 0.309164
35.4592 0.0979871
35.7452 0.384507
36.0313 0.517681
36.3173 0.237094
36.6034 -0.267388
36.8895 -0.24182
37.1755 0.151237
37.4616 -0.312176
37.7476 0.139261
38.0337 1.66131
38.3197 17.405
38.6058 6.38079
38.8919 0.359473
39.1779 0.6171
39.464 -0.0701592
39.75 0.77044
40.0361 2.29103
40.3221 10.2989
40.6082 0.679457
40.8942 -0.218087
41.1803 0.027882
41.4664 -0.287849
41.7524 0.248263
42.0385 0.683113
42.3245 0.626077
42.6106 -0.143044
42.8966 0.76804
43.1827 0.952862
43.4688 0.281214
43.7548 0.341637
44.0409 0.405875
44.3269 0.326662
44.613 -0.010063
44.899 0.123808
45.1851 0.326214
45.4712 -0.18595
45.7572 0.164165
46.0433 0.164345
46.3293 0.24887
46.6154 0.246708
46.9014 0.383059
47.1875 0.626482
47.4736 -0.403232
47.7596 -0.41119
48.0457 -0.338119
48.3317 0.260375
48.6178 -0.101768
48.9038 0.122647
49.1899 0.00738812
49.476 0.038684
49.762 0.0754107
50.0481 0.347718
50.3341 0.0743563
50.6202 0.409078
50.9062 0.211966
51.1923 -0.0428142
51.4784 0.0654675
51.7644 -0.113819
52.0505 -0.0579298
52.3365 -0.18274
52.6226 0.606812
52.9086 6.34719
53.1947 11.4655
53.4808 -0.0279343
53.7668 0.173399
54.0529 0.375098
54.3389 0.6913
54.625 0.0208241
54.911 0.00429426
55.1971 0.0909219
55.4832 0.0210286
55.7692 0.143237
56.0553 0.176016
56.3413 0.0423225
56.6274 -0.099848
56.9134 0.29882
57.1995 0.101434
57.4856 0.227503
57.7716 0.312443
58.0577 0.192665
58.3437 -0.0118136
58.6298 0.216927
58.9158 0.110031
59.2019 0.0581234
59.4879 -0.147142
59.774 0.647819
60.0601 0.104339
60.3461 0.29293
60.6322 0.0417848
60.9182 0.319613
61.2043 -0.0506966
61.4903 0.310855
61.7764 -0.0408695
62.0625 -0.103231
62.3485 0.0106563
62.6346 0.025824
62.9206 5.71942
63.2067 1.10343
63.4927 -0.0200788
63.7788 -0.0469313
64.0649 0.0549431
64.3509 0.274454
64.637 -0.0634268
64.923 -0.137986
65.2091 0.0507763
65.4951 0.0297236
65.7812 -0.14262
66.0673 0.0613591
66.3533 -0.257921
66.6394 0.206954
66.9254 0.023692
67.2115 0.0930543
67.4975 -0.184624
67.7836 -0.128199
68.0697 0.217589
68.3557 -0.432893
68.6418 0.197637
68.9278 0.647099
69.2139 -0.171465
69.4999 0.0843388
69.786 -0.106283
70.0721 0.435166
70.3581 3.81806
70.6442 118.558
70.9302 10.3582
71.2163 0.130011
71.5023 0.18892
71.7884 0.428935
72.0745 0.090524
72.3605 0.177204
72.6466 0.0324137
72.9326 0.0207365
73.2187 -0.0524945
73.5047 -0.178402
73.7908 0.115529
74.0769 -0.295705
74.3629 0.509321
74.649 0.167687
74.935 0.105764
75.2211 0.31048
75.5071 -0.115995
75.7932 0.0520834
76.0793 1.44702
76.3653 2.14175
76.6514 0.391456
76.9374 0.101021
77.2235 -0.0397385
77.5095 -0.155749
77.7956 0.0696866
78.0816 0.0636522
78.3677 0.12098
78.6538 0.331265
78.9398 0.0818648
79.2259 0.315031
79.5119 0.0823522
79.798 0.165078
80.084 -0.0357497
80.3701 -0.129506
80.6562 0.602891
80.9422 0.322568
81.2283 0.045149
81.5143 0.231148
81.8004 0.176059
82.0864 0.618665
82.3725 1.16834
82.6586 -0.0759479
82.9446 -0.0933766
83.2307 0.00675621
83.5167 -0.311812
83.8028 0.0218017
84.0888 0.0493243
84.3749 0.17082
84.661 0.13897
84.947 0.0310303
85.2331 -0.204223
85.5191 -0.144706
85.8052 0.0739651
86.0912 0.00232095
86.3773 0.132135
86.6634 0.00443696
86.9494 0.257452
87.2355 -0.0544578
87.5215 0.131329
87.8076 0.140668
88.0936 0.3121
88.3797 0.384648
88.6658 0.0652172
88.9518 0.0775268
89.2379 -0.0745721
89.5239 0.244984
89.81 0.155066
89.9939 -0.140239

File: OER Sample 4 (Ti TiO2 Sb2S3 MoO3 Ni)_25112020_bg_subtracted.xy
'Id: "Commander Sample ID" Comment: "" Operator: "Lab Manager" Anode: "Cu" Scantype: "Coupled TwoTheta/Theta" TimePerStep: "38.4"
10.0001 -0.620645
10.2862 -0.834137
10.5722 0.569094
10.8583 -0.742044
11.1443 0.6604
11.4304 0.630562
11.7164 1.0174
12.0025 1.16987
12.2886 3.14526
12.5746 3.03733
12.8607 3.91899
13.1467 4.48816
13.4328 5.63026
13.7188 5.5484
14.0049 6.53426
14.291 5.95763
14.577 6.13622
14.8631 6.57523
15.1491 5.55592
15.4352 4.84911
15.7212 8.96002
16.0073 4.32094
16.2934 2.91103
16.5794 2.77718
16.8655 1.23708
17.1515 1.80637
17.4376 1.17774
17.7236 3.4658
18.0097 0.701774
18.2958 0.802343
18.5818 -0.194618
18.8679 0.816482
19.1539 0.395298
19.44 -0.598795
19.726 -0.361663
20.0121 -0.0877208
20.2981 -0.0511595
20.5842 -0.275006
20.8703 1.01157
21.1563 0.00649111
21.4424 0.147252
21.7284 0.716752
22.0145 -0.251273
22.3005 0.994252
22.5866 -0.494589
22.8727 -0.110579
23.1587 0.585939
23.4448 -0.0663366
23.7308 0.186884
24.0169 -0.393221
24.3029 0.750819
24.589 0.403437
24.8751 2.10359
25.1611 4.11624
25.4472 0.113283
25.7332 0.14679
26.0193 0.649055
26.3053 0.0054954
26.5914 0.485401
26.8775 0.879468
27.1635 -0.0367015
27.4496 0.349221
27.7356 -0.0981821
28.0217 0.131507
28.3077 0.361204
28.5938 2.28362
28.8799 0.0133313
29.1659 0.19097
29.452 0.550909
29.738 0.572314
30.0241 0.489561
30.3101 0.224524
30.5962 -0.0665454
30.8823 0.802127
31.1683 0.207618
31.4544 0.42041
31.7404 -0.773041
32.0265 0.00473325
32.3125 0.36274
32.5986 1.13742
32.8847 0.479821
33.1707 0.543278
33.4568 1.12623
33.7428 0.693569
34.0289 0.208832
34.3149 -0.342326
34.601 0.726538
34.8871 0.124788
35.1731 1.70107
35.4592 0.256528
35.7452 1.02553
36.0313 0.935175
36.3173 -0.0926763
36.6034 0.911502
36.8895 0.0521955
37.1755 0.494981
37.4616 -0.338267
37.7476 0.83452
38.0337 3.90836
38.3197 35.3155
38.6058 5.36855
38.8919 0.395542
39.1779 0.0932218
39.464 -0.0153977
39.75 1.46453
40.0361 3.98614
40.3221 9.58067
40.6082 0.669999
40.8942 -0.167746
41.1803 0.322643
41.4664 -0.0723768
41.7524 0.79566
42.0385 0.322586
42.3245 -0.176521
42.6106 -0.83187
42.8966 0.544039
43.1827 0.435581
43.4688 0.249007
43.7548 0.167914
44.0409 -0.37443
44.3269 0.437401
44.613 0.0199622
44.899 0.255163
45.1851 0.568526
45.4712 -0.428827
45.7572 -0.254297
46.0433 0.0764914
46.3293 -0.00937846
46.6154 0.184526
46.9014 1.27536
47.1875 0.751617
47.4736 0.514342
47.7596 -0.113549
48.0457 0.00756144
48.3317 0.0335891
48.6178 0.0777855
48.9038 -0.243907
49.1899 0.137535
49.476 0.145251
49.762 -0.215127
50.0481 -0.0546628
50.3341 0.150089
50.6202 0.143945
50.9062 0.578306
51.1923 -0.126723
51.4784 0.105757
51.7644 -0.0405141
52.0505 0.30108
52.3365 -0.346901
52.6226 0.906168
52.9086 9.68529
53.1947 8.98525
53.4808 0.00396714
53.7668 0.10294
54.0529 0.146152
54.3389 0.658123
54.625 0.336769
54.911 -0.0106191
55.1971 -0.173986
55.4832 0.458895
55.7692 -0.16672
56.0553 -0.0583793
56.3413 0.0499698
56.6274 0.0381434
56.9134 0.282825
57.1995 -0.0782397
57.4856 0.159662
57.7716 0.136524
58.0577 0.177453
58.3437 0.258369
58.6298 0.173701
58.9158 -0.287146
59.2019 0.397848
59.4879 0.249517
59.774 -0.188582
60.0601 0.6599
60.3461 -0.0801503
60.6322 -0.0129012
60.9182 0.0543563
61.2043 0.0574317
61.4903 0.000428959
61.7764 -0.0631228
62.0625 0.0886433
62.3485 0.331099
62.6346 0.0787713
62.9206 3.91499
63.2067 1.31893
63.4927 -0.0632576
63.7788 0.103572
64.0649 -0.0212884
64.3509 -0.148935
64.637 -0.00438926
64.923 -0.0496527
65.2091 -0.0167828
65.4951 0.172345
65.7812 0.519986
66.0673 0.218642
66.3533 0.0214727
66.6394 -0.134741
66.9254 0.206358
67.2115 0.365174
67.4975 0.23754
67.7836 0.180127
68.0697 0.0508598
68.3557 0.248636
68.6418 -0.120164
68.9278 -0.124372
69.2139 -0.224525
69.4999 0.079042
69.786 0.825326
70.0721 1.10287
70.3581 6.38042
70.6442 95.1476
70.9302 8.472
71.2163 0.259994
71.5023 0.120911
71.7884 0.319385
72.0745 0.217645
72.3605 0.0638298
72.6466 0.187444
72.9326 0.00536905
73.2187 0.42226
73.5047 -0.30912
73.7908 0.481282
74.0769 0.203985
74.3629 0.213154
74.649 -0.069563
74.935 -0.0102392
75.2211 0.345894
75.5071 -0.083226
75.7932 0.2428
76.0793 1.32404
76.3653 2.56154
76.6514 -0.0551156
76.9374 0.114427
77.2235 0.22475
77.5095 0.406327
77.7956 0.145203
78.0816 0.168616
78.3677 0.139254
78.6538 0.0248505
78.9398 -0.0374609
79.2259 0.160653
79.5119 0.205979
79.798 -0.0665027
80.084 -0.104601
80.3701 -0.220816
80.6562 0.147777
80.9422 0.0191395
81.2283 -0.38198
81.5143 0.0762846
81.8004 0.0658071
82.0864 1.04492
82.3725 0.904252
82.6586 0.346924
82.9446 0.204406
83.2307 0.131852
83.5167 0.230904
83.8028 -0.00333354
84.0888 0.103867
84.3749 0.236392
84.661 0.134551
84.947 -0.0572133
85.2331 0.00114677
85.5191 0.117952
85.8052 0.518933
86.0912 0.0739139
86.3773 0.323242
86.6634 0.433585
86.9494 0.205395
87.2355 0.482717
87.5215 0.0278047
87.8076 0.450486
88.0936 0.448679
88.3797 0.212505
88.6658 0.255107
88.9518 0.16777
89.2379 0.249609
89.5239 0.331455
89.81 0.293838
89.9939 -0.170767